#Temperature (K)	Pressure (MPa)	Quality (l+v)	Internal Energy (l+v, kJ/mol)	Enthalpy (l+v, kJ/mol)	Entropy (l+v, J/mol*K)	Density (l, kg/m3)	Volume (l, m3/kg)	Internal Energy (l, kJ/mol)	Enthalpy (l, kJ/mol)	Entropy (l, J/mol*K)	Cv (l, J/mol*K)	Cp (l, J/mol*K)	Sound Spd. (l, m/s)	Joule-Thomson (l, K/MPa)	Viscosity (l, uPa*s)	Therm. Cond. (l, W/m*K)	Density (v, kg/m3)	Volume (v, m3/kg)	Internal Energy (v, kJ/mol)	Enthalpy (v, kJ/mol)	Entropy (v, J/mol*K)	Cv (v, J/mol*K)	Cp (v, J/mol*K)	Sound Spd. (v, m/s)	Joule-Thomson (v, K/MPa)	Viscosity (v, uPa*s)	Therm. Cond. (v, W/m*K)
200.00	6.0958e-06	2.8477e-07	-10.712	-10.712	-40.313	880.28	0.0011360	-10.712	-10.712	-40.313	56.699	70.944	1471.1	-0.39674	4506.2	0.21783	0.00011754	8507.7	28.960	30.622	166.36	36.601	45.479	253.63	2.0726e+05	6.5626	0.0081235
202.00	7.7966e-06	3.6027e-07	-10.570	-10.570	-39.607	878.29	0.0011386	-10.570	-10.570	-39.607	56.755	70.979	1461.5	-0.39621	4203.0	0.21754	0.00014886	6717.6	29.020	30.699	164.69	37.221	46.168	254.63	1.8067e+05	6.6238	0.0082416
204.00	9.9205e-06	4.5347e-07	-10.428	-10.428	-38.907	876.30	0.0011412	-10.428	-10.428	-38.907	56.821	71.024	1452.1	-0.39564	3929.3	0.21725	0.00018758	5331.2	29.080	30.775	163.07	37.880	46.902	255.61	1.5761e+05	6.6851	0.0083604
206.00	1.2560e-05	5.6799e-07	-10.286	-10.286	-38.214	874.31	0.0011438	-10.286	-10.286	-38.214	56.896	71.079	1443.0	-0.39501	3681.5	0.21695	0.00023520	4251.8	29.140	30.851	161.48	38.581	47.683	256.58	1.3759e+05	6.7464	0.0084801
208.00	1.5823e-05	7.0803e-07	-10.144	-10.144	-37.527	872.33	0.0011464	-10.144	-10.144	-37.527	56.980	71.142	1434.0	-0.39433	3456.4	0.21665	0.00029350	3407.2	29.200	30.927	159.93	39.322	48.512	257.54	1.2021e+05	6.8078	0.0086005
210.00	1.9841e-05	8.7851e-07	-10.001	-10.001	-36.846	870.35	0.0011490	-10.001	-10.001	-36.846	57.072	71.215	1425.3	-0.39361	3251.3	0.21633	0.00036456	2743.0	29.259	31.003	158.41	40.104	49.389	258.49	1.0509e+05	6.8693	0.0087218
212.00	2.4765e-05	1.0851e-06	-9.8588	-9.8588	-36.170	868.37	0.0011516	-9.8589	-9.8589	-36.170	57.172	71.296	1416.7	-0.39283	3063.9	0.21602	0.00045080	2218.3	29.319	31.079	156.93	40.928	50.314	259.42	91953.	6.9309	0.0088438
214.00	3.0772e-05	1.3345e-06	-9.7161	-9.7161	-35.500	866.40	0.0011542	-9.7162	-9.7162	-35.501	57.279	71.386	1408.2	-0.39201	2892.0	0.21570	0.00055501	1801.8	29.378	31.154	155.48	41.792	51.287	260.34	80516.	6.9925	0.0089668
216.00	3.8071e-05	1.6343e-06	-9.5732	-9.5732	-34.836	864.43	0.0011568	-9.5733	-9.5733	-34.836	57.393	71.483	1399.8	-0.39114	2734.0	0.21537	0.00068042	1469.7	29.436	31.229	154.06	42.697	52.308	261.26	70558.	7.0542	0.0090906
218.00	4.6904e-05	1.9932e-06	-9.4302	-9.4302	-34.176	862.46	0.0011595	-9.4302	-9.4302	-34.177	57.515	71.587	1391.5	-0.39023	2588.3	0.21504	0.00083074	1203.7	29.495	31.304	152.68	43.641	53.376	262.17	61882.	7.1159	0.0092153
220.00	5.7549e-05	2.4211e-06	-9.2869	-9.2869	-33.522	860.50	0.0011621	-9.2870	-9.2870	-33.522	57.643	71.698	1383.3	-0.38928	2453.7	0.21470	0.0010102	989.89	29.553	31.379	151.32	44.625	54.491	263.07	54318.	7.1777	0.0093409
222.00	7.0330e-05	2.9295e-06	-9.1433	-9.1433	-32.873	858.55	0.0011648	-9.1434	-9.1434	-32.873	57.778	71.816	1375.2	-0.38829	2328.9	0.21436	0.0012237	817.20	29.612	31.453	149.99	45.646	55.653	263.96	47721.	7.2396	0.0094674
224.00	8.5617e-05	3.5312e-06	-8.9995	-8.9995	-32.228	856.59	0.0011674	-8.9997	-8.9997	-32.228	57.919	71.940	1367.2	-0.38727	2213.1	0.21402	0.0014767	677.19	29.669	31.527	148.70	46.705	56.860	264.86	41962.	7.3016	0.0095948
226.00	0.00010383	4.2410e-06	-8.8555	-8.8555	-31.588	854.64	0.0011701	-8.8557	-8.8557	-31.588	58.066	72.070	1359.2	-0.38621	2105.4	0.21367	0.0017755	563.23	29.727	31.601	147.42	47.799	58.110	265.74	36933.	7.3636	0.0097232
228.00	0.00012547	5.0751e-06	-8.7112	-8.7112	-30.952	852.70	0.0011728	-8.7114	-8.7114	-30.953	58.220	72.205	1351.3	-0.38512	2005.0	0.21332	0.0021271	470.13	29.784	31.674	146.18	48.928	59.404	266.63	32538.	7.4257	0.0098526
230.00	0.00015106	6.0523e-06	-8.5666	-8.5666	-30.321	850.75	0.0011754	-8.5669	-8.5668	-30.322	58.380	72.347	1343.4	-0.38400	1911.2	0.21297	0.0025394	393.79	29.842	31.748	144.96	50.089	60.739	267.51	28694.	7.4879	0.0099829
232.00	0.00018125	7.1931e-06	-8.4217	-8.4217	-29.693	848.81	0.0011781	-8.4220	-8.4220	-29.695	58.546	72.494	1335.5	-0.38284	1823.5	0.21261	0.0030215	330.96	29.898	31.821	143.76	51.282	62.113	268.39	25331.	7.5501	0.010114
234.00	0.00021674	8.5209e-06	-8.2765	-8.2765	-29.070	846.88	0.0011808	-8.2769	-8.2769	-29.072	58.719	72.648	1327.7	-0.38166	1741.2	0.21225	0.0035833	279.07	29.955	31.893	142.60	52.503	63.526	269.26	22385.	7.6123	0.010247
236.00	0.00025833	1.0061e-05	-8.1310	-8.1310	-28.451	844.95	0.0011835	-8.1314	-8.1314	-28.453	58.898	72.806	1320.0	-0.38045	1664.1	0.21189	0.0042360	236.07	30.011	31.966	141.45	53.752	64.975	270.14	19804.	7.6746	0.010380
238.00	0.00030690	1.1843e-05	-7.9852	-7.9852	-27.836	843.02	0.0011862	-7.9856	-7.9856	-27.838	59.083	72.971	1312.3	-0.37920	1591.6	0.21152	0.0049919	200.32	30.068	32.037	140.33	55.026	66.458	271.01	17539.	7.7370	0.010514
240.00	0.00036348	1.3899e-05	-7.8390	-7.8390	-27.224	841.09	0.0011889	-7.8395	-7.8395	-27.226	59.275	73.141	1304.6	-0.37793	1523.5	0.21116	0.0058649	170.51	30.123	32.109	139.23	56.324	67.973	271.89	15552.	7.7995	0.010650
242.00	0.00042917	1.6262e-05	-7.6925	-7.6924	-26.616	839.17	0.0011917	-7.6931	-7.6931	-26.619	59.473	73.317	1296.9	-0.37662	1459.2	0.21079	0.0068701	145.56	30.179	32.181	138.15	57.643	69.518	272.76	13805.	7.8619	0.010786
244.00	0.00050523	1.8973e-05	-7.5455	-7.5455	-26.011	837.25	0.0011944	-7.5463	-7.5462	-26.014	59.677	73.500	1289.3	-0.37529	1398.7	0.21042	0.0080245	124.62	30.234	32.252	137.09	58.980	71.091	273.63	12270.	7.9245	0.010924
246.00	0.00059305	2.2073e-05	-7.3982	-7.3982	-25.410	835.34	0.0011971	-7.3991	-7.3991	-25.414	59.888	73.688	1281.8	-0.37392	1341.5	0.21005	0.0093466	106.99	30.289	32.322	136.06	60.334	72.689	274.51	10918.	7.9870	0.011063
248.00	0.00069417	2.5610e-05	-7.2505	-7.2505	-24.812	833.43	0.0011999	-7.2515	-7.2515	-24.816	60.105	73.883	1274.2	-0.37252	1287.5	0.20967	0.010857	92.109	30.344	32.393	135.04	61.703	74.311	275.38	9727.1	8.0496	0.011202
250.00	0.00081030	2.9633e-05	-7.1024	-7.1023	-24.217	831.52	0.0012026	-7.1035	-7.1035	-24.222	60.329	74.084	1266.7	-0.37108	1236.5	0.20930	0.012577	79.509	30.399	32.463	134.04	63.083	75.954	276.25	8676.9	8.1123	0.011343
252.00	0.00094332	3.4200e-05	-6.9539	-6.9538	-23.625	829.61	0.0012054	-6.9552	-6.9551	-23.631	60.559	74.292	1259.3	-0.36961	1188.1	0.20892	0.014532	68.812	30.453	32.533	133.07	64.474	77.615	277.12	7750.0	8.1750	0.011485
254.00	0.0010953	3.9371e-05	-6.8049	-6.8048	-23.037	827.71	0.0012081	-6.8064	-6.8063	-23.043	60.795	74.507	1251.9	-0.36810	1142.4	0.20855	0.016749	59.705	30.507	32.603	132.11	65.871	79.291	277.99	6930.8	8.2377	0.011629
256.00	0.0012685	4.5210e-05	-6.6555	-6.6553	-22.451	825.81	0.0012109	-6.6571	-6.6571	-22.457	61.039	74.728	1244.5	-0.36655	1099.0	0.20817	0.019256	51.932	30.561	32.672	131.17	67.274	80.982	278.86	6206.2	8.3004	0.011773
258.00	0.0014655	5.1791e-05	-6.5055	-6.5054	-21.867	823.92	0.0012137	-6.5075	-6.5074	-21.875	61.288	74.957	1237.2	-0.36497	1057.8	0.20779	0.022085	45.280	30.615	32.741	130.25	68.680	82.684	279.73	5564.6	8.3632	0.011919
260.00	0.0016889	5.9189e-05	-6.3551	-6.3549	-21.286	822.03	0.0012165	-6.3573	-6.3573	-21.295	61.544	75.193	1229.9	-0.36334	1018.7	0.20741	0.025270	39.573	30.668	32.810	129.35	70.086	84.394	280.60	4995.8	8.4260	0.012066
262.00	0.0019417	6.7489e-05	-6.2042	-6.2040	-20.708	820.14	0.0012193	-6.2067	-6.2066	-20.718	61.806	75.436	1222.6	-0.36168	981.64	0.20703	0.028848	34.665	30.721	32.878	128.46	71.491	86.111	281.46	4491.0	8.4888	0.012214
264.00	0.0022273	7.6780e-05	-6.0527	-6.0525	-20.132	818.25	0.0012221	-6.0556	-6.0555	-20.144	62.074	75.687	1215.4	-0.35997	946.36	0.20665	0.032858	30.434	30.774	32.946	127.59	72.893	87.832	282.32	4042.6	8.5516	0.012363
266.00	0.0025490	8.7158e-05	-5.9007	-5.9005	-19.559	816.36	0.0012249	-5.9039	-5.9038	-19.571	62.349	75.946	1208.3	-0.35821	912.81	0.20628	0.037345	26.777	30.827	33.014	126.74	74.288	89.556	283.18	3643.7	8.6144	0.012514
268.00	0.0029107	9.8728e-05	-5.7482	-5.7478	-18.987	814.48	0.0012278	-5.7518	-5.7517	-19.002	62.630	76.212	1201.2	-0.35641	880.88	0.20590	0.042353	23.611	30.880	33.082	125.90	75.676	91.279	284.04	3288.5	8.6773	0.012666
270.00	0.0033166	0.00011160	-5.5950	-5.5946	-18.418	812.60	0.0012306	-5.5991	-5.5990	-18.434	62.917	76.487	1194.1	-0.35457	850.48	0.20552	0.047933	20.862	30.932	33.149	125.08	77.055	92.999	284.90	2971.8	8.7401	0.012819
272.00	0.0037710	0.00012589	-5.4413	-5.4408	-17.851	810.72	0.0012335	-5.4459	-5.4457	-17.868	63.210	76.769	1187.1	-0.35268	821.51	0.20514	0.054138	18.471	30.985	33.217	124.27	78.422	94.716	285.75	2689.2	8.8029	0.012974
274.00	0.0042789	0.00014173	-5.2869	-5.2864	-17.285	808.85	0.0012363	-5.2920	-5.2919	-17.305	63.508	77.059	1180.1	-0.35074	793.91	0.20476	0.061024	16.387	31.037	33.284	123.48	79.776	96.426	286.60	2436.6	8.8657	0.013130
276.00	0.0048454	0.00015926	-5.1319	-5.1313	-16.721	806.97	0.0012392	-5.1376	-5.1374	-16.744	63.813	77.358	1173.2	-0.34875	767.57	0.20438	0.068653	14.566	31.089	33.350	122.70	81.115	98.128	287.44	2210.7	8.9285	0.013287
278.00	0.0054761	0.00017860	-4.9762	-4.9755	-16.159	805.10	0.0012421	-4.9826	-4.9824	-16.184	64.123	77.664	1166.3	-0.34671	742.45	0.20400	0.077089	12.972	31.141	33.417	121.94	82.438	99.820	288.28	2008.3	8.9912	0.013446
280.00	0.0061768	0.00019993	-4.8198	-4.8191	-15.599	803.23	0.0012450	-4.8270	-4.8267	-15.626	64.438	77.979	1159.5	-0.34461	718.46	0.20362	0.086401	11.574	31.192	33.483	121.19	83.743	101.50	289.12	1826.8	9.0539	0.013606
282.00	0.0069542	0.00022340	-4.6627	-4.6619	-15.040	801.36	0.0012479	-4.6707	-4.6704	-15.070	64.759	78.302	1152.7	-0.34247	695.55	0.20324	0.096663	10.345	31.244	33.549	120.46	85.029	103.17	289.95	1663.9	9.1166	0.013768
284.00	0.0078148	0.00024918	-4.5049	-4.5040	-14.482	799.49	0.0012508	-4.5138	-4.5135	-14.515	65.085	78.634	1146.0	-0.34027	673.66	0.20286	0.10795	9.2634	31.295	33.615	119.74	86.295	104.82	290.78	1517.5	9.1793	0.013931
286.00	0.0087662	0.00027745	-4.3463	-4.3453	-13.926	797.62	0.0012537	-4.3562	-4.3558	-13.963	65.416	78.973	1139.3	-0.33802	652.72	0.20248	0.12035	8.3090	31.347	33.681	119.03	87.539	106.46	291.60	1385.7	9.2419	0.014096
288.00	0.0098159	0.00030841	-4.1869	-4.1858	-13.370	795.75	0.0012567	-4.1979	-4.1975	-13.411	65.752	79.321	1132.6	-0.33572	632.70	0.20210	0.13395	7.4655	31.398	33.746	118.34	88.761	108.08	292.41	1267.0	9.3044	0.014262
290.00	0.010972	0.00034225	-4.0268	-4.0255	-12.816	793.87	0.0012596	-4.0389	-4.0385	-12.861	66.093	79.678	1126.0	-0.33336	613.53	0.20172	0.14884	6.7188	31.449	33.811	117.66	89.960	109.68	293.22	1159.9	9.3669	0.014430
292.00	0.012244	0.00037919	-3.8658	-3.8644	-12.263	792.00	0.0012626	-3.8792	-3.8787	-12.312	66.438	80.042	1119.4	-0.33095	595.18	0.20134	0.16511	6.0565	31.500	33.876	116.99	91.135	111.26	294.02	1063.2	9.4293	0.014599
294.00	0.013641	0.00041945	-3.7040	-3.7025	-11.711	790.13	0.0012656	-3.7188	-3.7182	-11.765	66.788	80.415	1112.9	-0.32848	577.60	0.20096	0.18288	5.4682	31.551	33.941	116.33	92.285	112.83	294.81	975.80	9.4916	0.014770
296.00	0.015173	0.00046327	-3.5413	-3.5396	-11.159	788.26	0.0012686	-3.5576	-3.5570	-11.218	67.143	80.796	1106.4	-0.32595	560.76	0.20058	0.20224	4.9446	31.601	34.005	115.68	93.409	114.37	295.60	896.68	9.5538	0.014942
298.00	0.016849	0.00051089	-3.3778	-3.3758	-10.609	786.38	0.0012716	-3.3957	-3.3950	-10.673	67.501	81.186	1099.9	-0.32337	544.61	0.20020	0.22332	4.4779	31.652	34.070	115.05	94.508	115.90	296.38	824.99	9.6160	0.015116
300.00	0.018682	0.00056257	-3.2133	-3.2111	-10.058	784.51	0.0012747	-3.2329	-3.2322	-10.129	67.864	81.584	1093.5	-0.32073	529.12	0.19982	0.24623	4.0613	31.703	34.134	114.42	95.581	117.40	297.15	759.96	9.6780	0.015292
302.00	0.020683	0.00061859	-3.0478	-3.0455	-9.5089	782.63	0.0012777	-3.0694	-3.0685	-9.5852	68.230	81.989	1087.1	-0.31803	514.25	0.19944	0.27110	3.6887	31.753	34.198	113.81	96.627	118.88	297.91	700.90	9.7400	0.015470
304.00	0.022864	0.00067921	-2.8814	-2.8788	-8.9597	780.75	0.0012808	-2.9050	-2.9041	-9.0428	68.600	82.403	1080.8	-0.31527	499.98	0.19906	0.29806	3.3550	31.803	34.261	113.21	97.647	120.33	298.67	647.21	9.8018	0.015649
306.00	0.025238	0.00074475	-2.7141	-2.7112	-8.4109	778.86	0.0012839	-2.7398	-2.7388	-8.5012	68.973	82.825	1074.5	-0.31245	486.27	0.19868	0.32725	3.0557	31.853	34.325	112.62	98.640	121.77	299.41	598.34	9.8635	0.015830
308.00	0.027819	0.00081550	-2.5457	-2.5425	-7.8624	776.98	0.0012870	-2.5738	-2.5726	-7.9603	69.350	83.255	1068.2	-0.30958	473.09	0.19830	0.35882	2.7869	31.903	34.388	112.04	99.607	123.19	300.14	553.81	9.9251	0.016013
310.00	0.030621	0.00089178	-2.3763	-2.3728	-7.3141	775.08	0.0012902	-2.4069	-2.4056	-7.4202	69.730	83.693	1061.9	-0.30664	460.43	0.19792	0.39291	2.5451	31.953	34.450	111.47	100.55	124.58	300.87	513.19	9.9865	0.016198
312.00	0.033659	0.00097394	-2.2058	-2.2019	-6.7659	773.19	0.0012933	-2.2391	-2.2377	-6.8807	70.113	84.139	1055.7	-0.30365	448.25	0.19754	0.42969	2.3273	32.003	34.513	110.91	101.46	125.95	301.58	476.10	10.048	0.016384
314.00	0.036948	0.0010623	-2.0342	-2.0300	-6.2178	771.29	0.0012965	-2.0704	-2.0689	-6.3418	70.499	84.593	1049.4	-0.30059	436.53	0.19716	0.46931	2.1308	32.053	34.575	110.36	102.35	127.31	302.28	442.20	10.109	0.016573
316.00	0.040505	0.0011573	-1.8615	-1.8569	-5.6696	769.38	0.0012997	-1.9009	-1.8992	-5.8034	70.888	85.055	1043.2	-0.29747	425.24	0.19677	0.51196	1.9533	32.102	34.637	109.82	103.21	128.64	302.98	411.17	10.170	0.016764
318.00	0.044348	0.0012592	-1.6877	-1.6826	-5.1212	767.48	0.0013030	-1.7303	-1.7285	-5.2655	71.279	85.525	1037.1	-0.29429	414.38	0.19639	0.55781	1.7927	32.151	34.699	109.28	104.05	129.95	303.66	382.76	10.231	0.016956
320.00	0.048494	0.0013685	-1.5127	-1.5072	-4.5727	765.56	0.0013062	-1.5589	-1.5569	-4.7280	71.673	86.002	1030.9	-0.29104	403.91	0.19601	0.60706	1.6473	32.200	34.760	108.76	104.87	131.25	304.32	356.70	10.291	0.017151
322.00	0.052962	0.0014855	-1.3365	-1.3305	-4.0239	763.64	0.0013095	-1.3865	-1.3843	-4.1909	72.069	86.487	1024.7	-0.28774	393.82	0.19563	0.65988	1.5154	32.249	34.821	108.25	105.66	132.53	304.98	332.78	10.352	0.017348
324.00	0.057771	0.0016107	-1.1591	-1.1525	-3.4747	761.71	0.0013128	-1.2131	-1.2107	-3.6541	72.467	86.980	1018.6	-0.28436	384.09	0.19525	0.71650	1.3957	32.297	34.881	107.74	106.43	133.79	305.62	310.81	10.412	0.017547
326.00	0.062942	0.0017445	-0.98051	-0.97333	-2.9251	759.77	0.0013162	-1.0387	-1.0361	-3.1176	72.868	87.481	1012.5	-0.28093	374.70	0.19486	0.77711	1.2868	32.346	34.941	107.24	107.17	135.04	306.25	290.60	10.472	0.017748
328.00	0.068495	0.0018873	-0.80061	-0.79280	-2.3749	757.83	0.0013196	-0.86338	-0.86049	-2.5813	73.270	87.989	1006.4	-0.27742	365.64	0.19448	0.84194	1.1877	32.394	35.001	106.75	107.89	136.27	306.87	271.99	10.532	0.017951
330.00	0.074453	0.0020397	-0.61943	-0.61094	-1.8242	755.88	0.0013230	-0.68701	-0.68385	-2.0452	73.674	88.504	1000.2	-0.27385	356.89	0.19410	0.91122	1.0974	32.442	35.060	106.27	108.60	137.49	307.47	254.84	10.592	0.018157
332.00	0.080839	0.0022021	-0.43693	-0.42771	-1.2729	753.92	0.0013264	-0.50960	-0.50616	-1.5092	74.080	89.028	994.12	-0.27021	348.45	0.19371	0.98518	1.0150	32.489	35.118	105.79	109.28	138.71	308.06	239.02	10.651	0.018365
334.00	0.087675	0.0023750	-0.25309	-0.24309	-0.72078	751.96	0.0013299	-0.33115	-0.32741	-0.97325	74.487	89.559	988.01	-0.26650	340.28	0.19333	1.0641	0.93979	32.536	35.176	105.33	109.95	139.91	308.63	224.42	10.711	0.018576
336.00	0.094987	0.0025589	-0.067878	-0.057047	-0.16791	749.98	0.0013334	-0.15164	-0.14759	-0.43737	74.896	90.097	981.90	-0.26272	332.39	0.19295	1.1481	0.87097	32.583	35.234	104.86	110.59	141.10	309.18	210.92	10.769	0.018789
338.00	0.10280	0.0027544	0.11873	0.13045	0.38582	747.99	0.0013369	0.028935	0.033338	0.098500	75.307	90.644	975.78	-0.25887	324.75	0.19256	1.2377	0.80797	32.630	35.291	104.41	111.22	142.29	309.72	198.44	10.828	0.019005
340.00	0.11114	0.0029620	0.30676	0.31943	0.94048	746.00	0.0013405	0.21060	0.21537	0.63442	75.718	91.198	969.66	-0.25494	317.37	0.19217	1.3329	0.75024	32.676	35.347	103.96	111.84	143.48	310.25	186.88	10.887	0.019223
342.00	0.12003	0.0031822	0.49624	0.50993	1.4961	743.99	0.0013441	0.39336	0.39853	1.1704	76.131	91.759	963.53	-0.25094	310.22	0.19179	1.4342	0.69727	32.721	35.403	103.52	112.44	144.66	310.76	176.16	10.945	0.019444
344.00	0.12951	0.0034158	0.68719	0.70196	2.0529	741.97	0.0013478	0.57724	0.58284	1.7066	76.544	92.328	957.39	-0.24686	303.29	0.19140	1.5417	0.64863	32.766	35.458	103.09	113.02	145.84	311.25	166.23	11.003	0.019668
346.00	0.13960	0.0036631	0.87965	0.89557	2.6107	739.94	0.0013515	0.76225	0.76830	2.2429	76.959	92.905	951.24	-0.24270	296.59	0.19101	1.6559	0.60391	32.811	35.512	102.66	113.60	147.03	311.72	157.00	11.061	0.019895
348.00	0.15032	0.0039250	1.0736	1.0908	3.1697	737.90	0.0013552	0.94840	0.95493	2.7794	77.374	93.490	945.07	-0.23847	290.09	0.19063	1.7770	0.56276	32.855	35.566	102.24	114.16	148.22	312.17	148.42	11.118	0.020125
350.00	0.16172	0.0042020	1.2692	1.2876	3.7300	735.84	0.0013590	1.1357	1.1428	3.3161	77.791	94.082	938.89	-0.23414	283.78	0.19024	1.9053	0.52485	32.899	35.619	101.82	114.71	149.42	312.61	140.45	11.175	0.020357
352.00	0.17382	0.0044948	1.4663	1.4861	4.2916	733.77	0.0013628	1.3242	1.3318	3.8532	78.207	94.682	932.69	-0.22974	277.67	0.18985	2.0412	0.48990	32.942	35.671	101.41	115.25	150.62	313.02	133.03	11.232	0.020593
354.00	0.18666	0.0048041	1.6650	1.6863	4.8546	731.69	0.0013667	1.5139	1.5220	4.3905	78.625	95.290	926.46	-0.22524	271.74	0.18946	2.1851	0.45765	32.985	35.722	101.00	115.79	151.84	313.42	126.11	11.289	0.020832
356.00	0.20027	0.0051306	1.8654	1.8883	5.4191	729.60	0.0013706	1.7047	1.7135	4.9282	79.043	95.906	920.21	-0.22066	265.98	0.18907	2.3373	0.42785	33.026	35.772	100.60	116.32	153.07	313.79	119.66	11.345	0.021074
358.00	0.21468	0.0054750	2.0675	2.0919	5.9850	727.49	0.0013746	1.8968	1.9063	5.4663	79.462	96.531	913.94	-0.21598	260.39	0.18868	2.4981	0.40030	33.068	35.821	100.20	116.84	154.32	314.14	113.64	11.401	0.021320
360.00	0.22992	0.0058381	2.2712	2.2974	6.5525	725.36	0.0013786	2.0901	2.1003	6.0049	79.881	97.163	907.64	-0.21121	254.95	0.18829	2.6681	0.37480	33.108	35.869	99.808	117.36	155.59	314.48	108.02	11.457	0.021569
362.00	0.24605	0.0062207	2.4766	2.5047	7.1216	723.22	0.0013827	2.2847	2.2956	6.5439	80.300	97.804	901.31	-0.20634	249.67	0.18790	2.8475	0.35119	33.148	35.916	99.419	117.88	156.88	314.78	102.77	11.513	0.021822
364.00	0.26308	0.0066235	2.6838	2.7138	7.6924	721.06	0.0013869	2.4805	2.4922	7.0834	80.720	98.454	894.95	-0.20136	244.54	0.18751	3.0368	0.32929	33.187	35.962	99.035	118.40	158.20	315.07	97.847	11.568	0.022079
366.00	0.28106	0.0070474	2.8928	2.9249	8.2650	718.88	0.0013911	2.6775	2.6901	7.6234	81.140	99.112	888.55	-0.19628	239.55	0.18712	3.2365	0.30897	33.225	36.007	98.654	118.91	159.55	315.33	93.242	11.623	0.022339
368.00	0.30004	0.0074933	3.1036	3.1378	8.8393	716.69	0.0013953	2.8759	2.8893	8.1641	81.560	99.779	882.12	-0.19109	234.69	0.18673	3.4470	0.29011	33.262	36.051	98.277	119.43	160.93	315.57	88.926	11.677	0.022604
370.00	0.32004	0.0079620	3.3162	3.3527	9.4155	714.47	0.0013996	3.0756	3.0899	8.7053	81.981	100.45	875.66	-0.18578	229.96	0.18634	3.6688	0.27257	33.298	36.093	97.904	119.95	162.34	315.78	84.878	11.731	0.022872
372.00	0.34112	0.0084545	3.5307	3.5696	9.9936	712.24	0.0014040	3.2766	3.2919	9.2472	82.402	101.14	869.15	-0.18036	225.35	0.18595	3.9023	0.25626	33.334	36.134	97.534	120.47	163.79	315.97	81.077	11.785	0.023145
374.00	0.36330	0.0089718	3.7470	3.7885	10.574	709.99	0.0014085	3.4789	3.4953	9.7897	82.822	101.83	862.60	-0.17481	220.86	0.18556	4.1480	0.24108	33.368	36.174	97.167	120.99	165.28	316.13	77.507	11.839	0.023422
376.00	0.38664	0.0095147	3.9653	4.0094	11.156	707.72	0.0014130	3.6826	3.7001	10.333	83.243	102.54	856.00	-0.16913	216.49	0.18517	4.4066	0.22693	33.401	36.213	96.802	121.52	166.82	316.26	74.149	11.892	0.023704
378.00	0.41118	0.010084	4.1855	4.2324	11.740	705.43	0.0014176	3.8876	3.9063	10.877	83.664	103.25	849.37	-0.16332	212.22	0.18478	4.6786	0.21374	33.433	36.249	96.441	122.06	168.41	316.36	70.990	11.945	0.023991
380.00	0.43696	0.010682	4.4077	4.4576	12.326	703.11	0.0014223	4.0940	4.1139	11.422	84.085	103.98	842.68	-0.15737	208.06	0.18439	4.9644	0.20143	33.464	36.285	96.082	122.60	170.05	316.44	68.014	11.998	0.024282
382.00	0.46404	0.011308	4.6319	4.6849	12.915	700.77	0.0014270	4.3018	4.3231	11.967	84.506	104.71	835.95	-0.15127	204.01	0.18399	5.2648	0.18994	33.494	36.318	95.725	123.15	171.74	316.48	65.208	12.051	0.024579
384.00	0.49245	0.011964	4.8582	4.9143	13.505	698.41	0.0014318	4.5111	4.5337	12.514	84.926	105.46	829.16	-0.14503	200.05	0.18360	5.5803	0.17920	33.523	36.351	95.370	123.71	173.50	316.50	62.562	12.103	0.024881
386.00	0.52224	0.012652	5.0865	5.1460	14.098	696.03	0.0014367	4.7217	4.7458	13.061	85.347	106.21	822.32	-0.13862	196.18	0.18321	5.9117	0.16916	33.550	36.381	95.018	124.28	175.32	316.48	60.063	12.155	0.025188
388.00	0.55346	0.013372	5.3169	5.3800	14.694	693.62	0.0014417	4.9339	4.9594	13.610	85.768	106.98	815.43	-0.13204	192.40	0.18282	6.2595	0.15976	33.576	36.409	94.666	124.86	177.21	316.43	57.701	12.207	0.025502
390.00	0.58617	0.014126	5.5494	5.6162	15.291	691.18	0.0014468	5.1475	5.1746	14.159	86.189	107.76	808.48	-0.12529	188.71	0.18244	6.6244	0.15096	33.601	36.436	94.317	125.46	179.17	316.34	55.468	12.258	0.025821
392.00	0.62041	0.014915	5.7840	5.8548	15.891	688.72	0.0014520	5.3625	5.3914	14.709	86.610	108.56	801.47	-0.11836	185.10	0.18205	7.0074	0.14271	33.624	36.461	93.968	126.06	181.21	316.22	53.353	12.309	0.026147
394.00	0.65623	0.015740	6.0209	6.0957	16.494	686.23	0.0014572	5.5791	5.6098	15.261	87.031	109.36	794.41	-0.11124	181.57	0.18166	7.4090	0.13497	33.646	36.484	93.621	126.68	183.33	316.07	51.349	12.360	0.026479
396.00	0.69369	0.016603	6.2599	6.3390	17.099	683.72	0.0014626	5.7972	5.8297	15.813	87.451	110.18	787.28	-0.10391	178.12	0.18127	7.8301	0.12771	33.666	36.505	93.275	127.31	185.54	315.87	49.449	12.411	0.026818
398.00	0.73284	0.017506	6.5012	6.5848	17.707	681.17	0.0014681	6.0169	6.0514	16.367	87.872	111.02	780.09	-0.096376	174.74	0.18088	8.2716	0.12090	33.684	36.523	92.929	127.96	187.83	315.64	47.645	12.462	0.027164
400.00	0.77374	0.018449	6.7448	6.8330	18.318	678.59	0.0014736	6.2381	6.2747	16.922	88.293	111.86	772.84	-0.088616	171.43	0.18050	8.7343	0.11449	33.701	36.540	92.584	128.62	190.22	315.37	45.932	12.512	0.027517


